Folder: BLR_perovskite

File: data_training_copy.csv
A,B,X,Band_gap,DeltaH,DeltaL,Grain_size,Thickness,PCE,Voc,Jsc,FF
1.0,1.0,1.0,1.5,0.15,0.2,1.154,0.36,20.7,1.11,24.0,0.78
1.0,1.0,1.0,1.59,0.4,0.3,3.0,0.5,20.1,1.03,23.51,0.83
1.0,1.0,1.0,1.55,0.1,0.47,1.8,0.45,18.0,0.92,22.4,0.82
1.0,1.0,1.0,1.5,0.4,0.2,0.1,0.7,11.11,0.946,17.51,0.671
-0.7,1.0,0.7,1.63,0.22,0.18,0.7,0.4,20.61,1.145,23.28,0.76
-0.7,1.0,0.7,1.73,0.18,0.32,0.701,0.5,18.5,1.09,24.42,0.696
-0.7,1.0,0.7,1.73,0.18,0.43,0.115,0.5,15.17,1.05,20.49,0.69
-0.68,1.0,0.66,1.6,0.41,0.14,0.4,0.35,17.6,1.089,22.38,0.725
-0.68,1.0,0.66,1.6,0.41,0.14,0.4,0.35,17.6,1.089,22.38,0.725
-0.68,1.0,0.66,1.6,0.45,0.14,0.4,0.35,17.0,1.121,21.0,0.714
-0.68,1.0,0.66,1.6,0.45,0.14,0.4,0.35,17.0,1.121,21.34,0.714
-0.7,1.0,0.7,1.59,0.16,0.2,0.175,0.9,20.05,1.1,23.2,0.786
-0.7,1.0,0.7,1.59,0.16,0.3,0.175,0.9,19.23,1.1,22.34,0.782
1.0,1.0,1.0,1.5,0.2,0.3,0.301,0.4,12.3,0.92,18.6,0.72
1.0,1.0,1.0,1.5,0.15,0.3,1.154,0.5,18.1,1.07,22.0,0.768
1.0,1.0,1.0,1.5,0.18,0.2,0.8,0.5,18.55,1.084,22.2,0.771
1.0,1.0,1.0,1.5,0.18,0.2,0.55,0.3,15.7,1.03,20.4,0.749
1.0,1.0,1.0,1.5,0.15,0.2,0.3,0.35,16.22,1.09,19.5,0.76
1.0,1.0,1.0,1.5,0.18,0.2,0.3,0.35,15.9,1.0,21.8,0.726
1.0,1.0,1.0,1.5,0.18,0.2,0.654,0.35,16.11,1.029,21.08,0.745
1.0,1.0,1.0,1.5,0.18,0.2,0.45,0.41,15.4,1.04,23.0,0.64
1.0,1.0,1.0,1.5,0.2,0.0,0.425,0.35,15.15,1.039,20.71,0.704
1.0,1.0,1.0,1.5,0.2,0.3,0.425,0.35,12.33,1.024,17.91,0.672
1.0,1.0,1.0,1.5,0.2,0.3,0.628,0.3,15.01,0.96,19.8,0.79
1.0,1.0,1.0,1.5,0.18,0.32,0.5,0.55,19.2,1.1,22.03,0.785
1.0,1.0,1.0,1.5,0.18,0.3,1.097,0.29,17.35,1.06,20.68,0.791
1.0,1.0,1.0,1.5,0.18,0.11,1.035,0.29,14.38,0.99,20.18,0.72
1.0,1.0,1.0,1.5,0.18,0.38,0.325,0.25,15.0,1.021,21.64,0.679
1.0,1.0,1.0,1.5,0.16,0.22,2.0,0.2,13.34,0.938,19.58,0.726
1.0,1.0,1.0,1.5,0.14,0.3,0.3164,0.5,16.69,1.047,21.2,0.75
-0.7,1.0,0.7,1.73,0.43,0.18,1.0,0.65,20.75,1.129,23.6,0.779
1.0,1.0,1.0,1.5,0.18,0.3,1.0,0.48,19.5,1.11,22.64,0.776
0.8,1.0,1.0,1.54,0.49,0.05,0.1,0.038,7.68,1.05,10.1,0.73
0.6,1.0,1.0,1.57,0.49,0.02,0.1,0.038,4.58,1.04,6.76,0.654
0.9,1.0,1.0,1.51,0.49,0.08,0.1,0.038,6.29,1.01,8.69,0.726
1.0,1.0,1.0,1.5,0.1,0.3,0.47,1.0,19.66,1.08,22.47,0.81
1.0,1.0,1.0,1.5,0.5,0.3,0.47,1.0,14.45,1.0,18.52,0.78
1.0,1.0,1.0,1.5,0.3,0.1,0.35,0.45,18.8,1.12,21.8,0.77
1.0,1.0,1.0,1.5,0.18,0.2,1.0,0.32,11.6,0.85,18.7,0.731
1.0,1.0,1.0,1.5,0.0,0.3,0.65,0.32,12.43,1.048,20.03,0.591
1.0,1.0,1.0,1.5,0.2,0.0,0.4,0.3,11.7,1.11,20.53,0.5
-0.694,1.0,0.66,1.57,0.14,0.06,0.45,0.4,20.47,1.13,23.62,0.7666
-0.694,1.0,0.66,1.57,0.14,0.06,0.45,0.4,20.47,1.13,23.62,0.7666
-0.694,1.0,0.66,1.57,0.16,0.06,0.45,0.4,20.02,1.12,23.52,0.7601
-0.694,1.0,0.66,1.57,0.16,0.06,0.45,0.4,19.03,1.12,23.15,0.7339
-0.694,1.0,0.66,1.57,0.16,0.14,0.45,0.4,19.6,1.11,23.52,0.7506
-0.694,1.0,0.66,1.57,0.16,0.5,0.45,0.4,18.31,1.09,22.8,0.7366
-0.694,1.0,0.66,1.57,0.13,0.06,0.45,0.4,18.77,1.09,23.17,0.7431
-0.694,1.0,0.66,1.57,0.15,0.06,0.45,0.4,17.88,1.09,23.16,0.7088
-0.694,1.0,0.66,1.57,0.16,0.36,0.45,0.4,16.76,1.07,21.9,0.7138
-0.694,1.0,0.66,1.57,0.16,0.57,0.45,0.4,16.71,1.06,22.44,0.704
-1.0,1.0,0.34,1.82,0.64,0.44,0.253,0.2,12.02,1.3,13.13,0.704
1.0,1.0,1.0,1.5,0.18,0.2,1.5,0.35,17.8,1.1,21.9,0.741
1.0,1.0,1.0,1.5,0.18,0.32,2.0,0.4,17.1,1.05,22.5,0.718
0.0,0.0,1.0,1.25,0.2,0.15,0.45,0.62,17.59,0.75,30.56,0.76
1.0,1.0,1.0,1.6,0.2,0.0,0.4,0.25,12.67,0.91,19.61,0.71
-1.0,1.0,-0.34,2.08,0.8,0.08,0.75,0.36,5.52,0.85,10.56,0.62
1.0,1.0,1.0,1.5,0.15,0.1,0.425,0.405,20.26,1.12,22.28,0.812
1.0,1.0,1.0,1.5,0.24,0.1,0.425,0.405,18.18,1.09,21.74,0.767
0.0,0.0,1.0,1.25,0.2,0.35,0.45,0.62,14.18,0.67,28.35,0.74
1.0,1.0,1.0,1.6,0.3,0.0,0.4,0.25,17.06,0.98,22.61,0.77
-1.0,1.0,0.34,1.92,0.86,0.06,1.161,0.45,16.07,1.23,16.79,0.7781
-1.0,1.0,-1.0,2.3,0.4,0.8,0.64,0.6,6.95,1.27,6.97,0.785

File: KDE_X.csv
A,B,X,Thickness,Bandgap,Voc,Jsc,FF,PCE
-2.88983,-2.90367,-1.12838,-0.10292,1.07321,-0.135081,-3.44527,-0.0653552,-3.89865
-2.83576,-2.86239,-1.08611,-0.0909716,1.08832,-0.112707,-3.07065,-0.0134888,-3.57083
-2.78169,-2.82111,-1.04383,-0.0790229,1.10343,-0.0903339,-2.69603,0.0383777,-3.24302
-2.72763,-2.77983,-1.00155,-0.0670743,1.11854,-0.0679604,-2.32142,0.0902441,-2.9152
-2.67356,-2.73855,-0.959268,-0.0551256,1.13366,-0.0455869,-1.9468,0.142111,-2.58739
-2.61949,-2.69727,-0.916989,-0.043177,1.14877,-0.0232134,-1.57218,0.193977,-2.25958
-2.56543,-2.65599,-0.87471,-0.0312283,1.16388,-0.000839938,-1.19756,0.245843,-1.93176
-2.51136,-2.61471,-0.832431,-0.0192797,1.17899,0.0215335,-0.822941,0.29771,-1.60395
-2.45729,-2.57343,-0.790152,-0.00733103,1.1941,0.043907,-0.448323,0.349576,-1.27613
-2.40323,-2.53215,-0.747873,0.00461761,1.20921,0.0662805,-0.0737041,0.401443,-0.948319
-2.34916,-2.49087,-0.705594,0.0165663,1.22432,0.088654,0.300914,0.453309,-0.620504
-2.29509,-2.44959,-0.663315,0.0285149,1.23943,0.111027,0.675533,0.505176,-0.29269
-2.24103,-2.40831,-0.621036,0.0404636,1.25455,0.133401,1.05015,0.557042,0.0351241
-2.18696,-2.36703,-0.578756,0.0524122,1.26966,0.155774,1.42477,0.608908,0.362938
-2.13289,-2.32575,-0.536477,0.0643609,1.28477,0.178148,1.79939,0.660775,0.690753
-2.07883,-2.28447,-0.494198,0.0763095,1.29988,0.200521,2.17401,0.712641,1.01857
-2.02476,-2.24319,-0.451919,0.0882581,1.31499,0.222895,2.54863,0.764508,1.34638
-1.97069,-2.20191,-0.40964,0.100207,1.3301,0.245268,2.92324,0.816374,1.6742
-1.91662,-2.16063,-0.367361,0.112155,1.34521,0.267642,3.29786,0.868241,2.00201
-1.86256,-2.11935,-0.325082,0.124104,1.36033,0.290015,3.67248,0.920107,2.32982
-1.80849,-2.07807,-0.282803,0.136053,1.37544,0.312389,4.0471,0.971974,2.65764
-1.75442,-2.03679,-0.240524,0.148001,1.39055,0.334762,4.42172,1.02384,2.98545
-1.70036,-1.99551,-0.198245,0.15995,1.40566,0.357136,4.79634,1.07571,3.31327
-1.64629,-1.95423,-0.155966,0.171899,1.42077,0.379509,5.17095,1.12757,3.64108
-1.59222,-1.91295,-0.113687,0.183847,1.43588,0.401883,5.54557,1.17944,3.9689
-1.53816,-1.87167,-0.0714074,0.195796,1.45099,0.424256,5.92019,1.23131,4.29671
-1.48409,-1.83039,-0.0291283,0.207745,1.46611,0.44663,6.29481,1.28317,4.62452
-1.43002,-1.78911,0.0131507,0.219693,1.48122,0.469003,6.66943,1.33504,4.95234
-1.37596,-1.74783,0.0554298,0.231642,1.49633,0.491377,7.04405,1.38691,5.28015
-1.32189,-1.70655,0.0977089,0.243591,1.51144,0.51375,7.41867,1.43877,5.60797
-1.26782,-1.66527,0.139988,0.255539,1.52655,0.536124,7.79328,1.49064,5.93578
-1.21375,-1.62399,0.182267,0.267488,1.54166,0.558497,8.1679,1.5425,6.2636
-1.15969,-1.58271,0.224546,0.279437,1.55677,0.580871,8.54252,1.59437,6.59141
-1.10562,-1.54144,0.266825,0.291385,1.57188,0.603244,8.91714,1.64624,6.91922
-1.05155,-1.50016,0.309104,0.303334,1.587,0.625618,9.29176,1.6981,7.24704
-0.997487,-1.45888,0.351383,0.315282,1.60211,0.647991,9.66638,1.74997,7.57485
-0.94342,-1.4176,0.393663,0.327231,1.61722,0.670365,10.041,1.80184,7.90267
-0.889353,-1.37632,0.435942,0.33918,1.63233,0.692738,10.4156,1.8537,8.23048
-0.835286,-1.33504,0.478221,0.351128,1.64744,0.715112,10.7902,1.90557,8.55829
-0.781219,-1.29376,0.5205,0.363077,1.66255,0.737485,11.1649,1.95744,8.88611
-0.727152,-1.25248,0.562779,0.375026,1.67766,0.759859,11.5395,2.0093,9.21392
-0.673085,-1.2112,0.605058,0.386974,1.69278,0.782232,11.9141,2.06117,9.54174
-0.619019,-1.16992,0.647337,0.398923,1.70789,0.804605,12.2887,2.11304,9.86955
-0.564952,-1.12864,0.689616,0.410872,1.723,0.826979,12.6633,2.1649,10.1974
-0.510885,-1.08736,0.731895,0.42282,1.73811,0.849352,13.0379,2.21677,10.5252
-0.456818,-1.04608,0.774174,0.434769,1.75322,0.871726,13.4126,2.26863,10.853
-0.402751,-1.0048,0.816453,0.446718,1.76833,0.894099,13.7872,2.3205,11.1808
-0.348684,-0.963519,0.858733,0.458666,1.78344,0.916473,14.1618,2.37237,11.5086
-0.294617,-0.92224,0.901012,0.470615,1.79856,0.938846,14.5364,2.42423,11.8364
-0.24055,-0.88096,0.943291,0.482564,1.81367,0.96122,14.911,2.4761,12.1643
-0.186483,-0.83968,0.98557,0.494512,1.82878,0.983593,15.2857,2.52797,12.4921
-0.132416,-0.7984,1.02785,0.506461,1.84389,1.00597,15.6603,2.57983,12.8199
-0.0783495,-0.757121,1.07013,0.518409,1.859,1.02834,16.0349,2.6317,13.1477
-0.0242825,-0.715841,1.11241,0.530358,1.87411,1.05071,16.4095,2.68357,13.4755
0.0297844,-0.674561,1.15469,0.542307,1.88922,1.07309,16.7841,2.73543,13.8033
0.0838513,-0.633281,1.19697,0.554255,1.90433,1.09546,17.1587,2.7873,14.1311
0.137918,-0.592002,1.23924,0.566204,1.91945,1.11783,17.5334,2.83917,14.459
0.191985,-0.550722,1.28152,0.578153,1.93456,1.14021,17.908,2.89103,14.7868
0.246052,-0.509442,1.3238,0.590101,1.94967,1.16258,18.2826,2.9429,15.1146
0.300119,-0.468163,1.36608,0.60205,1.96478,1.18495,18.6572,2.99476,15.4424
0.354186,-0.426883,1.40836,0.613999,1.97989,1.20733,19.0318,3.04663,15.7702
0.408253,-0.385603,1.45064,0.625947,1.995,1.2297,19.4065,3.0985,16.098
0.46232,-0.344323,1.49292,0.637896,2.01011,1.25208,19.7811,3.15036,16.4258
0.516387,-0.303044,1.5352,0.649845,2.02523,1.27445,20.1557,3.20223,16.7537
0.570453,-0.261764,1.57748,0.661793,2.04034,1.29682,20.5303,3.2541,17.0815
0.62452,-0.220484,1.61976,0.673742,2.05545,1.3192,20.9049,3.30596,17.4093
0.678587,-0.179205,1.66204,0.685691,2.07056,1.34157,21.2796,3.35783,17.7371
0.732654,-0.137925,1.70431,0.697639,2.08567,1.36394,21.6542,3.4097,18.0649
0.786721,-0.0966452,1.74659,0.709588,2.10078,1.38632,22.0288,3.46156,18.3927
0.840788,-0.0553655,1.78887,0.721536,2.11589,1.40869,22.4034,3.51343,18.7205
0.894855,-0.0140858,1.83115,0.733485,2.131,1.43106,22.778,3.5653,19.0484
0.948922,0.0271939,1.87343,0.745434,2.14612,1.45344,23.1526,3.61716,19.3762
1.00299,0.0684736,1.91571,0.757382,2.16123,1.47581,23.5273,3.66903,19.704
1.05706,0.109753,1.95799,0.769331,2.17634,1.49818,23.9019,3.72089,20.0318
1.11112,0.151033,2.00027,0.78128,2.19145,1.52056,24.2765,3.77276,20.3596
1.16519,0.192313,2.04255,0.793228,2.20656,1.54293,24.6511,3.82463,20.6874
1.21926,0.233593,2.08483,0.805177,2.22167,1.5653,25.0257,3.87649,21.0152
1.27332,0.274872,2.12711,0.817126,2.23678,1.58768,25.4004,3.92836,21.3431
1.32739,0.316152,2.16938,0.829074,2.2519,1.61005,25.775,3.98023,21.6709
1.38146,0.357432,2.21166,0.841023,2.26701,1.63242,26.1496,4.03209,21.9987
1.43552,0.398711,2.25394,0.852972,2.28212,1.6548,26.5242,4.08396,22.3265
1.48959,0.439991,2.29622,0.86492,2.29723,1.67717,26.8988,4.13583,22.6543
1.54366,0.481271,2.3385,0.876869,2.31234,1.69954,27.2734,4.18769,22.9821
1.59772,0.522551,2.38078,0.888818,2.32745,1.72192,27.6481,4.23956,23.3099
1.65179,0.56383,2.42306,0.900766,2.34256,1.74429,28.0227,4.29143,23.6378
1.70586,0.60511,2.46534,0.912715,2.35768,1.76667,28.3973,4.34329,23.9656
1.75993,0.64639,2.50762,0.924663,2.37279,1.78904,28.7719,4.39516,24.2934
1.81399,0.687669,2.5499,0.936612,2.3879,1.81141,29.1465,4.44702,24.6212
1.86806,0.728949,2.59218,0.948561,2.40301,1.83379,29.5212,4.49889,24.949
1.92213,0.770229,2.63445,0.960509,2.41812,1.85616,29.8958,4.55076,25.2768
1.97619,0.811509,2.67673,0.972458,2.43323,1.87853,30.2704,4.60262,25.6046
2.03026,0.852788,2.71901,0.984407,2.44834,1.90091,30.645,4.65449,25.9325
2.08433,0.894068,2.76129,0.996355,2.46345,1.92328,31.0196,4.70636,26.2603
2.13839,0.935348,2.80357,1.0083,2.47857,1.94565,31.3943,4.75822,26.5881
2.19246,0.976627,2.84585,1.02025,2.49368,1.96803,31.7689,4.81009,26.9159
2.24653,1.01791,2.88813,1.0322,2.50879,1.9904,32.1435,4.86196,27.2437
2.30059,1.05919,2.93041,1.04415,2.5239,2.01277,32.5181,4.91382,27.5715
2.35466,1.10047,2.97269,1.0561,2.53901,2.03515,32.8927,4.96569,27.8993
2.40873,1.14175,3.01497,1.06805,2.55412,2.05752,33.2673,5.01756,28.2272
2.4628,1.18303,3.05725,1.08,2.56923,2.07989,33.642,5.06942,28.555
2.48983,1.20367,3.07838,1.08597,2.57679,2.09108,33.8293,5.09536,28.7189

File: KDE_Y.csv
A,B,X,Thickness,Bandgap,Voc,Jsc,FF,PCE
6.58812e-07,3.18119e-06,6.72105e-05,4.50772e-05,2.58944e-05,0.000128346,1.55458e-05,5.36702e-06,5.16342e-05
1.69022e-06,1.63879e-05,0.000799233,0.000134922,0.000130469,0.000586014,3.79132e-05,0.000344497,0.00011183
3.90329e-06,5.83295e-05,0.00358113,0.000369372,0.000510606,0.00211293,8.57188e-05,0.00267201,0.000228099
8.15759e-06,0.000143444,0.00604615,0.000930675,0.0015641,0.00602489,0.000179797,0.0071501,0.000438406
1.56057e-05,0.000243729,0.00384634,0.00216949,0.00380089,0.0136208,0.000350189,0.0271051,0.000794531
2.79488e-05,0.00028613,0.000921996,0.0046948,0.00750112,0.0245268,0.000634047,0.0657284,0.0013589
4.86823e-05,0.000232085,8.32762e-05,0.00944233,0.0125033,0.0354826,0.00106869,0.143855,0.00219557
8.65043e-05,0.000130066,2.83416e-06,0.0176379,0.0186547,0.0419341,0.00167984,0.24171,0.00335531
0.000161623,5.03627e-05,3.63454e-08,0.0305552,0.0265547,0.041806,0.00246803,0.354428,0.00485755
0.000313358,1.34736e-05,5.69862e-10,0.0490495,0.0373216,0.0372355,0.00339889,0.50154,0.00667482
0.000603102,2.49052e-06,5.87805e-08,0.0730477,0.0509873,0.0322018,0.00440341,0.71577,0.00872643
0.00110305,3.18074e-07,3.31361e-06,0.101364,0.0652907,0.0292442,0.00539066,1.03847,0.0108867
0.00186387,2.81407e-08,7.13476e-05,0.132153,0.0769768,0.0287139,0.00626992,1.52774,0.0130078
0.0028678,4.09442e-09,0.000609335,0.163924,0.0842863,0.0299941,0.00697384,2.29449,0.0149514
0.00399331,5.31067e-08,0.00231986,0.196587,0.0870546,0.0324927,0.00747361,3.27513,0.0166189
0.00502497,8.15412e-07,0.00484153,0.231882,0.0851091,0.035811,0.00778123,4.19504,0.017971
0.00572288,8.6621e-06,0.00583959,0.272897,0.0788082,0.039716,0.00794024,3.54571,0.0190292
0.00592337,6.3577e-05,0.00336073,0.322865,0.0706169,0.0442128,0.00801072,1.20234,0.019862
0.00561165,0.000322409,0.000789163,0.383847,0.063912,0.0494536,0.00805493,0.118671,0.0205606
0.00491974,0.00112965,7.13601e-05,0.455976,0.0602472,0.0553872,0.00812745,0.00825825,0.0212145
0.00405391,0.00273471,2.44801e-06,0.537768,0.0586088,0.0615786,0.00827011,0.00380294,0.0218935
0.00320354,0.00457414,1.30736e-06,0.627416,0.0575524,0.067575,0.0085101,0.00168537,0.0226406
0.00248832,0.00528613,0.000201978,0.724291,0.060007,0.0734291,0.00885945,0.000460217,0.0234744
0.00196893,0.00422081,0.0120491,0.829838,0.079406,0.0796864,0.00931434,0.000756026,0.0243985
0.00171579,0.00232854,0.270844,0.947805,0.141591,0.0868725,0.00985478,0.00200668,0.025411
0.00192878,0.000887568,2.29402,1.0842,0.273287,0.0951216,0.0104454,0.000751966,0.0265129
0.0031139,0.000233749,7.32144,1.24703,0.474896,0.104203,0.0110395,0.000592337,0.0277102
0.00630365,4.25333e-05,8.80535,1.44528,0.702122,0.113659,0.0115869,0.000228131,0.0290116
0.0132143,5.34734e-06,3.99212,1.68674,0.900762,0.12297,0.0120457,0.000112294,0.0304234
0.0260928,4.6449e-07,0.684811,1.97435,1.09998,0.132061,0.0123933,0.000308691,0.0319437
0.046961,2.7877e-08,0.0484591,2.30045,1.5058,0.141957,0.0126346,6.38123e-05,0.033559
0.0762188,1.15596e-09,0.0069737,2.64037,2.52224,0.154593,0.012802,9.22005e-07,0.0352448
0.111161,3.31223e-11,0.00457467,2.95118,4.5674,0.17161,0.0129485,1.6665e-06,0.0369702
0.14551,9.3169e-13,0.0015412,3.18243,7.52646,0.193589,0.0131356,0.000116404,0.0387048
0.170904,1.74595e-11,0.000513618,3.29799,10.2337,0.220928,0.0134203,0.00060266,0.040426
0.180145,9.24751e-10,0.00159636,3.29578,11.0138,0.255148,0.0138467,0.000232298,0.0421234
0.170545,3.95101e-08,0.00299224,3.2098,9.24171,0.298616,0.0144415,6.64662e-06,0.0438005
0.145277,1.2781e-06,0.00212601,3.09195,6.03879,0.353182,0.0152153,1.39823e-08,0.045472
0.111859,2.9875e-05,0.000569208,2.98663,3.11117,0.420132,0.0161671,2.13579e-12,0.047158
0.0787852,0.000492151,5.74233e-05,2.91292,1.31845,0.501837,0.0172899,2.34089e-17,0.0488782
0.0524301,0.00564895,2.18303e-06,2.86117,0.522903,0.602935,0.0185756,1.82359e-23,0.0506458
0.0357447,0.044956,6.27214e-08,2.80281,0.257841,0.729913,0.0200185,1.00292e-30,0.0524649
0.0288333,0.247557,1.73902e-06,2.70885,0.189891,0.889421,0.0216171,8.94407e-35,0.0543299
0.0304857,0.942485,3.62272e-05,2.56888,0.172898,1.08535,0.0233723,5.99893e-27,0.0562275
0.0397093,2.48001,0.000285122,2.39949,0.161463,1.31559,0.0252857,2.8069e-20,0.058139
0.0568206,4.51008,0.000867257,2.2359,0.147072,1.57125,0.0273557,9.1621e-15,0.0600425
0.0839682,5.66899,0.00123808,2.11217,0.130971,1.84013,0.0295764,2.08708e-10,0.0619138
0.124788,4.92663,0.00172945,2.04227,0.115128,2.11271,0.0319388,3.32728e-07,0.0637268
0.182671,2.96239,0.00318984,2.01194,0.100359,2.38601,0.0344363,3.79371e-05,0.0654536
0.257557,1.23486,0.00791806,1.98397,0.0873003,2.66034,0.0370724,0.000357823,0.0670659
0.342511,0.358881,0.0155153,1.9152,0.0780092,2.92832,0.0398692,0.000464483,0.0685372
0.42259,0.0742496,0.0130785,1.77826,0.0756925,3.16158,0.0428707,9.70859e-05,0.0698446
0.478235,0.0120661,0.00422468,1.5768,0.0823151,3.3059,0.0461414,1.88299e-06,0.07097
0.492751,0.00238195,0.000659458,1.34388,0.096222,3.29437,0.0497558,2.66761e-09,0.0718987
0.460124,0.00109723,0.000936793,1.124,0.111184,3.07864,0.0537844,2.65241e-13,0.0726179
0.388295,0.000906131,0.00287765,0.950803,0.118452,2.66224,0.05828,5.89352e-14,0.0731146
0.295654,0.000901117,0.00457022,0.833942,0.112508,2.11157,0.0632673,8.60618e-10,0.0733747
0.202976,0.00088329,0.0032393,0.760447,0.0955198,1.53212,0.0687381,8.80733e-07,0.0733848
0.125721,0.000785465,0.000927262,0.706216,0.0748412,1.02323,0.0746499,6.51035e-05,0.0731334
0.0705511,0.000624973,0.000109928,0.649704,0.0568337,0.640992,0.0809216,0.00042135,0.0726114
0.0366198,0.000433793,0.00010613,0.581059,0.0444218,0.390198,0.087426,0.000411865,0.0718107
0.0195525,0.00026076,0.000518541,0.503385,0.0389182,0.242248,0.0939763,5.99621e-05,0.0707198
0.0157293,0.000175428,0.00099464,0.427098,0.0416426,0.160075,0.100312,7.56687e-07,0.0693206
0.0257212,0.000227773,0.000718981,0.361881,0.0528633,0.114327,0.106084,6.88479e-10,0.0675858
0.0567743,0.000500388,0.000195831,0.311404,0.0689503,0.0873904,0.110857,4.38877e-14,0.0654807
0.12392,0.00143993,2.02398e-05,0.273104,0.0816151,0.0704898,0.114116,1.95268e-19,0.0629693
0.247913,0.00470675,6.35853e-06,0.241626,0.0826396,0.0595905,0.115319,6.06098e-26,0.0600223
0.447532,0.0142788,8.281e-05,0.212778,0.0705583,0.0526546,0.113976,1.31235e-33,0.056627
0.725996,0.0348262,0.00046283,0.185586,0.0516028,0.0483501,0.109752,1.98222e-42,0.0527947
1.05683,0.0633158,0.000974926,0.161888,0.034029,0.0455463,0.102585,2.08855e-52,0.048566
1.37967,0.0826427,0.000781219,0.144421,0.0226535,0.0431795,0.0927572,1.53508e-63,0.044012
1.61476,0.0760615,0.000460144,0.134833,0.0179999,0.040432,0.0809021,7.87066e-76,0.0392321
1.6941,0.0489824,0.00263504,0.132604,0.018241,0.0369818,0.0679152,2.81503e-89,0.0343477
1.59305,0.0220743,0.0112114,0.135011,0.02103,0.0329035,0.0547983,7.0234e-104,0.0294936
1.34264,0.00710826,0.01815,0.137908,0.0245812,0.0283271,0.0424767,1.22237e-119,0.0248061
1.01417,0.00186818,0.0110725,0.137101,0.0285398,0.0233565,0.0316493,1.48407e-136,0.0204121
0.68657,0.000653738,0.00254522,0.129981,0.0344851,0.0182568,0.0227092,1.25689e-154,0.016417
0.416575,0.000401521,0.000220481,0.116657,0.0452742,0.0134722,0.0157463,7.42558e-174,0.0128964
0.226561,0.000288088,8.9563e-06,0.099802,0.063251,0.00939302,0.0106124,3.06026e-194,0.00989096
0.110495,0.000242206,4.41698e-05,0.0831368,0.0876507,0.00619121,0.00701536,1.35993e-205,0.00740628
0.048401,0.000274059,0.00041568,0.0695189,0.111846,0.00385685,0.00461037,1.36659e-184,0.00541674
0.0191754,0.000364632,0.00147758,0.0597932,0.124369,0.00228655,0.00306717,9.57967e-165,0.00387301
0.00711181,0.000501628,0.00199524,0.0529284,0.117055,0.00132174,0.00210821,4.68442e-146,0.00271118
0.00290377,0.000672679,0.00118087,0.0470746,0.0933124,0.000773465,0.00152163,1.59792e-128,0.00186179
0.00198088,0.000813703,0.000935039,0.0407576,0.0655301,0.000465821,0.00115781,3.80229e-112,0.00125736
0.00245556,0.00080641,0.00162685,0.0335501,0.0442662,0.000277569,0.000918427,6.31145e-97,0.00083758
0.00364259,0.000617444,0.00360185,0.0260012,0.0318806,0.000151969,0.000743675,7.30811e-83,0.000552075
0.00523255,0.000393553,0.00719306,0.0190553,0.0250286,7.26029e-05,0.000600889,5.90302e-70,0.000361102
0.00692044,0.000321802,0.00844017,0.0134277,0.0200108,3.35838e-05,0.000475317,3.3261e-58,0.000234854
0.0083175,0.000604689,0.00495099,0.00930803,0.0154368,2.88061e-05,0.000362906,1.30734e-47,0.000151944
0.00903709,0.00222005,0.00126318,0.00645318,0.0117196,5.47315e-05,0.000264786,3.58456e-38,9.76244e-05
0.00885092,0.00868014,0.000146869,0.00446705,0.00942746,0.000107448,0.000183346,6.85607e-30,6.20498e-05
0.00779975,0.0260972,0.000240711,0.00302743,0.00825977,0.000170738,0.000119893,9.1476e-23,3.87953e-05
0.00617696,0.0554871,0.00113987,0.00195704,0.00723059,0.00021338,7.37756e-05,8.51396e-17,2.37023e-05
0.0043925,0.0819904,0.00237246,0.00118008,0.0056163,0.000209147,4.26059e-05,5.52775e-12,1.40546e-05
0.00280312,0.0838697,0.00383813,0.000653671,0.00358299,0.000160732,2.30441e-05,2.50356e-08,8.03705e-06
0.00160469,0.0593248,0.00670136,0.000329473,0.00180819,9.68499e-05,1.16535e-05,7.90971e-06,4.40781e-06
0.000823827,0.0290053,0.00616624,0.000150233,0.000709867,4.57549e-05,5.50238e-06,0.000174323,2.3078e-06
0.000379221,0.00980052,0.00223107,6.17378e-05,0.000215189,1.6948e-05,2.42283e-06,0.000268005,1.14925e-06
0.000156494,0.00228827,0.0003055,2.28027e-05,5.02033e-05,4.92202e-06,9.93846e-07,2.87424e-05,5.42758e-07
9.64922e-05,0.000962583,7.84136e-05,1.33051e-05,2.19697e-05,2.42121e-06,6.1965e-07,3.46785e-06,3.65386e-07